"rt","response","question_order","trial_type","trial_index","time_elapsed","internal_node_id","run_id","condition","recorded_at","source_code_version","ip","user_agent","device","browser","browser_version","platform","platform_version","referer","accept_language","experimentSource","subjectId","consent_screen_data","success","timeout","failed_images","failed_audio","failed_video","stimulus","experiment_introduction_data","practice_instructions_data","block_number","spacebar_screen_presented_timestamp","spacebar_pressed_timestamp","video_start_timestamp","response_timestamp","Trial Type","Block Number","Trial Number","Stimulus Number","Stimulus Character","Original Filename","Obfuscated Filename","Response Character","Response Classification","Trial Presented Timestamp","Begin Stimulus Key Press Timestamp","Stimulus Video Started Timestamp","Subject Response Timestamp","Stimulus Video Completed Timestamp","Pre Stimulus Video Wait Time","Time Between Key Press and Video Start","Response Time","Time After Video End Before Decision Made","Total Trial Time","practice_complete_data","practice_trials_data","actual_trials_introduction_data","break_screen_data","actual_trials_data","actual_trials_complete_data","questionnaires_intro_screen_data","tellegen_scores","tellegen_total","tellegen_questions","tellegen_responses_data","stimulus_map_data","closing_screen_data"
"25377","{""Q0"":""Prolific""}","[0]","survey-multi-choice","0","25378","0.0-0.0","1","1","2026-02-24 06:00:14","3e9300109388e70555e79decfadaaa35","24.14.174.235","Mozilla/5.0 (Windows NT 10.0; Win64; x64) AppleWebKit/537.36 (KHTML, like Gecko) Chrome/145.0.0.0 Safari/537.36","WebKit","Chrome","145.0.0.0","Windows","10.0","https://ocyzhljrt7.cognition.run/editor","en-US,en;q=0.9","Prolific","hjk","","","","","","","","","","","","","","","","","","","","","","","","","","","","","","","","","","","","","","","","","","","","","",""
"1179","{""Q0"":""hjk""}","","survey-text","1","26558","0.0-1.0","1","1","2026-02-24 06:00:14","3e9300109388e70555e79decfadaaa35","24.14.174.235","Mozilla/5.0 (Windows NT 10.0; Win64; x64) AppleWebKit/537.36 (KHTML, like Gecko) Chrome/145.0.0.0 Safari/537.36","WebKit","Chrome","145.0.0.0","Windows","10.0","https://ocyzhljrt7.cognition.run/editor","en-US,en;q=0.9","Prolific","hjk","","","","","","","","","","","","","","","","","","","","","","","","","","","","","","","","","","","","","","","","","","","","","",""
"1569","{""Q0"":""I consent to participate in this study""}","[0]","survey-multi-choice","2","28128","0.0-2.0","1","1","2026-02-24 06:00:14","3e9300109388e70555e79decfadaaa35","24.14.174.235","Mozilla/5.0 (Windows NT 10.0; Win64; x64) AppleWebKit/537.36 (KHTML, like Gecko) Chrome/145.0.0.0 Safari/537.36","WebKit","Chrome","145.0.0.0","Windows","10.0","https://ocyzhljrt7.cognition.run/editor","en-US,en;q=0.9","Prolific","hjk","{""consent"":true,""consent_timestamp"":28662.800000071526}","","","","","","","","","","","","","","","","","","","","","","","","","","","","","","","","","","","","","","","","","","","","",""
"","","","preload","3","29410","0.0-4.0","1","1","2026-02-24 06:00:14","3e9300109388e70555e79decfadaaa35","24.14.174.235","Mozilla/5.0 (Windows NT 10.0; Win64; x64) AppleWebKit/537.36 (KHTML, like Gecko) Chrome/145.0.0.0 Safari/537.36","WebKit","Chrome","145.0.0.0","Windows","10.0","https://ocyzhljrt7.cognition.run/editor","en-US,en;q=0.9","Prolific","hjk","","true","false","[]","[]","[]","","","","","","","","","","","","","","","","","","","","","","","","","","","","","","","","","","","","","","","",""
"882"," ","","html-keyboard-response","4","30292","0.0-5.0","1","1","2026-02-24 06:00:14","3e9300109388e70555e79decfadaaa35","24.14.174.235","Mozilla/5.0 (Windows NT 10.0; Win64; x64) AppleWebKit/537.36 (KHTML, like Gecko) Chrome/145.0.0.0 Safari/537.36","WebKit","Chrome","145.0.0.0","Windows","10.0","https://ocyzhljrt7.cognition.run/editor","en-US,en;q=0.9","Prolific","hjk","","","","","","","<div style=""max-width:50rem; margin:0 auto; text-align:left;""><h2>Instructions</h2><p>In this experiment you will watch a series of short videos that gradually progress from static toward one of two letters, either an <strong>S</strong> or an <strong>X</strong>.</p><p>Your task is to identify which letter the video is progressing towards and press the corresponding key as quickly as possible.</p><p>Faster correct responses improve your performance score; performance influences your odds to win a raffle for an Amazon gift card.</p><p>Press <strong>space</strong> to continue.</p></div>","{""time_on_screen"":882,""start_timestamp"":29944.700000047684,""end_timestamp"":30826.700000047684}","","","","","","","","","","","","","","","","","","","","","","","","","","","","","","","","","","","","","",""
"2135","k","","html-keyboard-response","5","32428","0.0-6.0","1","1","2026-02-24 06:00:14","3e9300109388e70555e79decfadaaa35","24.14.174.235","Mozilla/5.0 (Windows NT 10.0; Win64; x64) AppleWebKit/537.36 (KHTML, like Gecko) Chrome/145.0.0.0 Safari/537.36","WebKit","Chrome","145.0.0.0","Windows","10.0","https://ocyzhljrt7.cognition.run/editor","en-US,en;q=0.9","Prolific","hjk","","","","","","","<div style=""max-width:50rem; margin:0 auto; text-align:left;""><h2>Practice Examples</h2><p>As a reminder: you will watch a series of short videos that gradually progress from static toward one of two letters, either an <strong>S</strong> or an <strong>X</strong>.</p><p>Your task is to identify which letter the video is progressing towards and press the corresponding key as quickly as possible.</p><p>Faster correct responses improve your performance score; performance influences your odds to win a raffle for an Amazon gift card.</p><p>You will now complete <strong>10</strong> practice trials so you can get used to the task.</p><p>Press <strong>k</strong> to begin the practice trials.</p></div>","","{""time_on_screen"":2135,""start_timestamp"":30827.700000047684,""end_timestamp"":32962.700000047684}","","","","","","","","","","","","","","","","","","","","","","","","","","","","","","","","","","","","",""
"1104"," ","","html-keyboard-response","6","33532","0.0-7.0-0.0","1","1","2026-02-24 06:00:14","3e9300109388e70555e79decfadaaa35","24.14.174.235","Mozilla/5.0 (Windows NT 10.0; Win64; x64) AppleWebKit/537.36 (KHTML, like Gecko) Chrome/145.0.0.0 Safari/537.36","WebKit","Chrome","145.0.0.0","Windows","10.0","https://ocyzhljrt7.cognition.run/editor","en-US,en;q=0.9","Prolific","hjk","","","","","","","<div style=""position:fixed; top:0; left:0; width:100vw; height:100vh; display:flex; align-items:center; justify-content:center; background:#f8f7f5;""><div style=""background:#fff; padding:2rem 3rem; border-radius:8px; border:1px solid #e0ddd8; box-shadow:0 2px 12px rgba(0,0,0,0.06); text-align:center;""><p style=""font-size:1.3rem; margin:0; color:#444;"">Press <strong style=""color:#800000;"">space</strong> to start the video</p></div></div>","","","null","","","","","","","","","","","","","","","","","","","","","","","","","","","","","","","","","","","",""
"null","null","","html-keyboard-response","7","35033","0.0-7.0-1.0","1","1","2026-02-24 06:00:14","3e9300109388e70555e79decfadaaa35","24.14.174.235","Mozilla/5.0 (Windows NT 10.0; Win64; x64) AppleWebKit/537.36 (KHTML, like Gecko) Chrome/145.0.0.0 Safari/537.36","WebKit","Chrome","145.0.0.0","Windows","10.0","https://ocyzhljrt7.cognition.run/editor","en-US,en;q=0.9","Prolific","hjk","","","","","","","","","","null","","","","","","","","","","","","","","","","","","","","","","","","","","","","","","","","","","","",""
"2682","s","","video-keyboard-response","8","37715","0.0-7.0-2.0","1","1","2026-02-24 06:00:14","3e9300109388e70555e79decfadaaa35","24.14.174.235","Mozilla/5.0 (Windows NT 10.0; Win64; x64) AppleWebKit/537.36 (KHTML, like Gecko) Chrome/145.0.0.0 Safari/537.36","WebKit","Chrome","145.0.0.0","Windows","10.0","https://ocyzhljrt7.cognition.run/editor","en-US,en;q=0.9","Prolific","hjk","","","","","","","[""29c21eaa5bcbb7f0.mp4""]","","","null","32963.10000002384","34067","35568","38251.300000071526","practice","null","1","102","S","S_102.mp4","29c21eaa5bcbb7f0.mp4","S","true_positive","32963.10000002384","34067","35568","38251.300000071526","-1","1103.8999999761581","1501","2683.3000000715256","-1","5288.200000047684","","","","","","","","","","","","",""
"919"," ","","html-keyboard-response","9","38635","0.0-7.0-0.1","1","1","2026-02-24 06:00:14","3e9300109388e70555e79decfadaaa35","24.14.174.235","Mozilla/5.0 (Windows NT 10.0; Win64; x64) AppleWebKit/537.36 (KHTML, like Gecko) Chrome/145.0.0.0 Safari/537.36","WebKit","Chrome","145.0.0.0","Windows","10.0","https://ocyzhljrt7.cognition.run/editor","en-US,en;q=0.9","Prolific","hjk","","","","","","","<div style=""position:fixed; top:0; left:0; width:100vw; height:100vh; display:flex; align-items:center; justify-content:center; background:#f8f7f5;""><div style=""background:#fff; padding:2rem 3rem; border-radius:8px; border:1px solid #e0ddd8; box-shadow:0 2px 12px rgba(0,0,0,0.06); text-align:center;""><p style=""font-size:1.3rem; margin:0; color:#444;"">Press <strong style=""color:#800000;"">space</strong> to start the video</p></div></div>","","","null","","","","","","","","","","","","","","","","","","","","","","","","","","","","","","","","","","","",""
"null","null","","html-keyboard-response","10","40136","0.0-7.0-1.1","1","1","2026-02-24 06:00:14","3e9300109388e70555e79decfadaaa35","24.14.174.235","Mozilla/5.0 (Windows NT 10.0; Win64; x64) AppleWebKit/537.36 (KHTML, like Gecko) Chrome/145.0.0.0 Safari/537.36","WebKit","Chrome","145.0.0.0","Windows","10.0","https://ocyzhljrt7.cognition.run/editor","en-US,en;q=0.9","Prolific","hjk","","","","","","","","","","null","","","","","","","","","","","","","","","","","","","","","","","","","","","","","","","","","","","",""
"2649","x","","video-keyboard-response","11","42787","0.0-7.0-2.1","1","1","2026-02-24 06:00:14","3e9300109388e70555e79decfadaaa35","24.14.174.235","Mozilla/5.0 (Windows NT 10.0; Win64; x64) AppleWebKit/537.36 (KHTML, like Gecko) Chrome/145.0.0.0 Safari/537.36","WebKit","Chrome","145.0.0.0","Windows","10.0","https://ocyzhljrt7.cognition.run/editor","en-US,en;q=0.9","Prolific","hjk","","","","","","","[""d9cf7a84cc36c1f5.mp4""]","","","null","38252.10000002384","39171","40673.10000002384","43323","practice","null","2","104","S","S_104.mp4","d9cf7a84cc36c1f5.mp4","X","false_negative","38252.10000002384","39171","40673.10000002384","43323","-1","918.8999999761581","1502.1000000238419","2649.899999976158","-1","5070.899999976158","","","","","","","","","","","","",""
"503"," ","","html-keyboard-response","12","43290","0.0-7.0-0.2","1","1","2026-02-24 06:00:14","3e9300109388e70555e79decfadaaa35","24.14.174.235","Mozilla/5.0 (Windows NT 10.0; Win64; x64) AppleWebKit/537.36 (KHTML, like Gecko) Chrome/145.0.0.0 Safari/537.36","WebKit","Chrome","145.0.0.0","Windows","10.0","https://ocyzhljrt7.cognition.run/editor","en-US,en;q=0.9","Prolific","hjk","","","","","","","<div style=""position:fixed; top:0; left:0; width:100vw; height:100vh; display:flex; align-items:center; justify-content:center; background:#f8f7f5;""><div style=""background:#fff; padding:2rem 3rem; border-radius:8px; border:1px solid #e0ddd8; box-shadow:0 2px 12px rgba(0,0,0,0.06); text-align:center;""><p style=""font-size:1.3rem; margin:0; color:#444;"">Press <strong style=""color:#800000;"">space</strong> to start the video</p></div></div>","","","null","","","","","","","","","","","","","","","","","","","","","","","","","","","","","","","","","","","",""
"null","null","","html-keyboard-response","13","44792","0.0-7.0-1.2","1","1","2026-02-24 06:00:14","3e9300109388e70555e79decfadaaa35","24.14.174.235","Mozilla/5.0 (Windows NT 10.0; Win64; x64) AppleWebKit/537.36 (KHTML, like Gecko) Chrome/145.0.0.0 Safari/537.36","WebKit","Chrome","145.0.0.0","Windows","10.0","https://ocyzhljrt7.cognition.run/editor","en-US,en;q=0.9","Prolific","hjk","","","","","","","","","","null","","","","","","","","","","","","","","","","","","","","","","","","","","","","","","","","","","","",""
"2929","s","","video-keyboard-response","14","47723","0.0-7.0-2.2","1","1","2026-02-24 06:00:14","3e9300109388e70555e79decfadaaa35","24.14.174.235","Mozilla/5.0 (Windows NT 10.0; Win64; x64) AppleWebKit/537.36 (KHTML, like Gecko) Chrome/145.0.0.0 Safari/537.36","WebKit","Chrome","145.0.0.0","Windows","10.0","https://ocyzhljrt7.cognition.run/editor","en-US,en;q=0.9","Prolific","hjk","","","","","","","[""cd5386a6d800f085.mp4""]","","","null","43323.60000002384","43826.90000009537","45329.5","48259.200000047684","practice","null","3","103","X","X_103.mp4","cd5386a6d800f085.mp4","S","false_positive","43323.60000002384","43826.90000009537","45329.5","48259.200000047684","-1","503.3000000715256","1502.5999999046326","2929.7000000476837","-1","4935.600000023842","","","","","","","","","","","","",""
"663"," ","","html-keyboard-response","15","48387","0.0-7.0-0.3","1","1","2026-02-24 06:00:14","3e9300109388e70555e79decfadaaa35","24.14.174.235","Mozilla/5.0 (Windows NT 10.0; Win64; x64) AppleWebKit/537.36 (KHTML, like Gecko) Chrome/145.0.0.0 Safari/537.36","WebKit","Chrome","145.0.0.0","Windows","10.0","https://ocyzhljrt7.cognition.run/editor","en-US,en;q=0.9","Prolific","hjk","","","","","","","<div style=""position:fixed; top:0; left:0; width:100vw; height:100vh; display:flex; align-items:center; justify-content:center; background:#f8f7f5;""><div style=""background:#fff; padding:2rem 3rem; border-radius:8px; border:1px solid #e0ddd8; box-shadow:0 2px 12px rgba(0,0,0,0.06); text-align:center;""><p style=""font-size:1.3rem; margin:0; color:#444;"">Press <strong style=""color:#800000;"">space</strong> to start the video</p></div></div>","","","null","","","","","","","","","","","","","","","","","","","","","","","","","","","","","","","","","","","",""
"null","null","","html-keyboard-response","16","49888","0.0-7.0-1.3","1","1","2026-02-24 06:00:14","3e9300109388e70555e79decfadaaa35","24.14.174.235","Mozilla/5.0 (Windows NT 10.0; Win64; x64) AppleWebKit/537.36 (KHTML, like Gecko) Chrome/145.0.0.0 Safari/537.36","WebKit","Chrome","145.0.0.0","Windows","10.0","https://ocyzhljrt7.cognition.run/editor","en-US,en;q=0.9","Prolific","hjk","","","","","","","","","","null","","","","","","","","","","","","","","","","","","","","","","","","","","","","","","","","","","","",""
"6498","s","","video-keyboard-response","17","56387","0.0-7.0-2.3","1","1","2026-02-24 06:00:14","3e9300109388e70555e79decfadaaa35","24.14.174.235","Mozilla/5.0 (Windows NT 10.0; Win64; x64) AppleWebKit/537.36 (KHTML, like Gecko) Chrome/145.0.0.0 Safari/537.36","WebKit","Chrome","145.0.0.0","Windows","10.0","https://ocyzhljrt7.cognition.run/editor","en-US,en;q=0.9","Prolific","hjk","","","","","","","[""cdf0a8ac9d4c3069.mp4""]","","","null","48259.800000071526","48923.10000002384","50425.40000009537","56923.800000071526","practice","null","4","104","X","X_104.mp4","cdf0a8ac9d4c3069.mp4","S","false_positive","48259.800000071526","48923.10000002384","50425.40000009537","56923.800000071526","-1","663.2999999523163","1502.3000000715256","6498.399999976158","-1","8664","","","","","","","","","","","","",""
"5159"," ","","html-keyboard-response","18","61547","0.0-7.0-0.4","1","1","2026-02-24 06:00:14","3e9300109388e70555e79decfadaaa35","24.14.174.235","Mozilla/5.0 (Windows NT 10.0; Win64; x64) AppleWebKit/537.36 (KHTML, like Gecko) Chrome/145.0.0.0 Safari/537.36","WebKit","Chrome","145.0.0.0","Windows","10.0","https://ocyzhljrt7.cognition.run/editor","en-US,en;q=0.9","Prolific","hjk","","","","","","","<div style=""position:fixed; top:0; left:0; width:100vw; height:100vh; display:flex; align-items:center; justify-content:center; background:#f8f7f5;""><div style=""background:#fff; padding:2rem 3rem; border-radius:8px; border:1px solid #e0ddd8; box-shadow:0 2px 12px rgba(0,0,0,0.06); text-align:center;""><p style=""font-size:1.3rem; margin:0; color:#444;"">Press <strong style=""color:#800000;"">space</strong> to start the video</p></div></div>","","","null","","","","","","","","","","","","","","","","","","","","","","","","","","","","","","","","","","","",""
"null","null","","html-keyboard-response","19","63049","0.0-7.0-1.4","1","1","2026-02-24 06:00:14","3e9300109388e70555e79decfadaaa35","24.14.174.235","Mozilla/5.0 (Windows NT 10.0; Win64; x64) AppleWebKit/537.36 (KHTML, like Gecko) Chrome/145.0.0.0 Safari/537.36","WebKit","Chrome","145.0.0.0","Windows","10.0","https://ocyzhljrt7.cognition.run/editor","en-US,en;q=0.9","Prolific","hjk","","","","","","","","","","null","","","","","","","","","","","","","","","","","","","","","","","","","","","","","","","","","","","",""
"2513","x","","video-keyboard-response","20","65563","0.0-7.0-2.4","1","1","2026-02-24 06:00:14","3e9300109388e70555e79decfadaaa35","24.14.174.235","Mozilla/5.0 (Windows NT 10.0; Win64; x64) AppleWebKit/537.36 (KHTML, like Gecko) Chrome/145.0.0.0 Safari/537.36","WebKit","Chrome","145.0.0.0","Windows","10.0","https://ocyzhljrt7.cognition.run/editor","en-US,en;q=0.9","Prolific","hjk","","","","","","","[""e667deea4ad1a187.mp4""]","","","null","56924.40000009537","62083.40000009537","63585.800000071526","66099.70000004768","practice","null","5","102","X","X_102.mp4","e667deea4ad1a187.mp4","X","true_negative","56924.40000009537","62083.40000009537","63585.800000071526","66099.70000004768","-1","5159","1502.3999999761581","2513.899999976158","-1","9175.299999952316","","","","","","","","","","","","",""
"686"," ","","html-keyboard-response","21","66251","0.0-7.0-0.5","1","1","2026-02-24 06:00:14","3e9300109388e70555e79decfadaaa35","24.14.174.235","Mozilla/5.0 (Windows NT 10.0; Win64; x64) AppleWebKit/537.36 (KHTML, like Gecko) Chrome/145.0.0.0 Safari/537.36","WebKit","Chrome","145.0.0.0","Windows","10.0","https://ocyzhljrt7.cognition.run/editor","en-US,en;q=0.9","Prolific","hjk","","","","","","","<div style=""position:fixed; top:0; left:0; width:100vw; height:100vh; display:flex; align-items:center; justify-content:center; background:#f8f7f5;""><div style=""background:#fff; padding:2rem 3rem; border-radius:8px; border:1px solid #e0ddd8; box-shadow:0 2px 12px rgba(0,0,0,0.06); text-align:center;""><p style=""font-size:1.3rem; margin:0; color:#444;"">Press <strong style=""color:#800000;"">space</strong> to start the video</p></div></div>","","","null","","","","","","","","","","","","","","","","","","","","","","","","","","","","","","","","","","","",""
"null","null","","html-keyboard-response","22","67752","0.0-7.0-1.5","1","1","2026-02-24 06:00:14","3e9300109388e70555e79decfadaaa35","24.14.174.235","Mozilla/5.0 (Windows NT 10.0; Win64; x64) AppleWebKit/537.36 (KHTML, like Gecko) Chrome/145.0.0.0 Safari/537.36","WebKit","Chrome","145.0.0.0","Windows","10.0","https://ocyzhljrt7.cognition.run/editor","en-US,en;q=0.9","Prolific","hjk","","","","","","","","","","null","","","","","","","","","","","","","","","","","","","","","","","","","","","","","","","","","","","",""
"322","s","","video-keyboard-response","23","68075","0.0-7.0-2.5","1","1","2026-02-24 06:00:14","3e9300109388e70555e79decfadaaa35","24.14.174.235","Mozilla/5.0 (Windows NT 10.0; Win64; x64) AppleWebKit/537.36 (KHTML, like Gecko) Chrome/145.0.0.0 Safari/537.36","WebKit","Chrome","145.0.0.0","Windows","10.0","https://ocyzhljrt7.cognition.run/editor","en-US,en;q=0.9","Prolific","hjk","","","","","","","[""89aaba2d4548f24f.mp4""]","","","null","66100.80000007153","66787.5","68289.30000007153","68611.90000009537","practice","null","6","100","X","X_100.mp4","89aaba2d4548f24f.mp4","S","false_positive","66100.80000007153","66787.5","68289.30000007153","68611.90000009537","-1","686.6999999284744","1501.8000000715256","322.60000002384186","-1","2511.100000023842","","","","","","","","","","","","",""
"527"," ","","html-keyboard-response","24","68603","0.0-7.0-0.6","1","1","2026-02-24 06:00:14","3e9300109388e70555e79decfadaaa35","24.14.174.235","Mozilla/5.0 (Windows NT 10.0; Win64; x64) AppleWebKit/537.36 (KHTML, like Gecko) Chrome/145.0.0.0 Safari/537.36","WebKit","Chrome","145.0.0.0","Windows","10.0","https://ocyzhljrt7.cognition.run/editor","en-US,en;q=0.9","Prolific","hjk","","","","","","","<div style=""position:fixed; top:0; left:0; width:100vw; height:100vh; display:flex; align-items:center; justify-content:center; background:#f8f7f5;""><div style=""background:#fff; padding:2rem 3rem; border-radius:8px; border:1px solid #e0ddd8; box-shadow:0 2px 12px rgba(0,0,0,0.06); text-align:center;""><p style=""font-size:1.3rem; margin:0; color:#444;"">Press <strong style=""color:#800000;"">space</strong> to start the video</p></div></div>","","","null","","","","","","","","","","","","","","","","","","","","","","","","","","","","","","","","","","","",""
"null","null","","html-keyboard-response","25","70105","0.0-7.0-1.6","1","1","2026-02-24 06:00:14","3e9300109388e70555e79decfadaaa35","24.14.174.235","Mozilla/5.0 (Windows NT 10.0; Win64; x64) AppleWebKit/537.36 (KHTML, like Gecko) Chrome/145.0.0.0 Safari/537.36","WebKit","Chrome","145.0.0.0","Windows","10.0","https://ocyzhljrt7.cognition.run/editor","en-US,en;q=0.9","Prolific","hjk","","","","","","","","","","null","","","","","","","","","","","","","","","","","","","","","","","","","","","","","","","","","","","",""
"289","x","","video-keyboard-response","26","70395","0.0-7.0-2.6","1","1","2026-02-24 06:00:14","3e9300109388e70555e79decfadaaa35","24.14.174.235","Mozilla/5.0 (Windows NT 10.0; Win64; x64) AppleWebKit/537.36 (KHTML, like Gecko) Chrome/145.0.0.0 Safari/537.36","WebKit","Chrome","145.0.0.0","Windows","10.0","https://ocyzhljrt7.cognition.run/editor","en-US,en;q=0.9","Prolific","hjk","","","","","","","[""2b45b593795e70a5.mp4""]","","","null","68611.90000009537","69139.90000009537","70641.80000007153","70931.80000007153","practice","null","7","100","S","S_100.mp4","2b45b593795e70a5.mp4","X","false_negative","68611.90000009537","69139.90000009537","70641.80000007153","70931.80000007153","-1","528","1501.8999999761581","290","-1","2319.899999976158","","","","","","","","","","","","",""
"751"," ","","html-keyboard-response","27","71147","0.0-7.0-0.7","1","1","2026-02-24 06:00:14","3e9300109388e70555e79decfadaaa35","24.14.174.235","Mozilla/5.0 (Windows NT 10.0; Win64; x64) AppleWebKit/537.36 (KHTML, like Gecko) Chrome/145.0.0.0 Safari/537.36","WebKit","Chrome","145.0.0.0","Windows","10.0","https://ocyzhljrt7.cognition.run/editor","en-US,en;q=0.9","Prolific","hjk","","","","","","","<div style=""position:fixed; top:0; left:0; width:100vw; height:100vh; display:flex; align-items:center; justify-content:center; background:#f8f7f5;""><div style=""background:#fff; padding:2rem 3rem; border-radius:8px; border:1px solid #e0ddd8; box-shadow:0 2px 12px rgba(0,0,0,0.06); text-align:center;""><p style=""font-size:1.3rem; margin:0; color:#444;"">Press <strong style=""color:#800000;"">space</strong> to start the video</p></div></div>","","","null","","","","","","","","","","","","","","","","","","","","","","","","","","","","","","","","","","","",""
"null","null","","html-keyboard-response","28","72649","0.0-7.0-1.7","1","1","2026-02-24 06:00:14","3e9300109388e70555e79decfadaaa35","24.14.174.235","Mozilla/5.0 (Windows NT 10.0; Win64; x64) AppleWebKit/537.36 (KHTML, like Gecko) Chrome/145.0.0.0 Safari/537.36","WebKit","Chrome","145.0.0.0","Windows","10.0","https://ocyzhljrt7.cognition.run/editor","en-US,en;q=0.9","Prolific","hjk","","","","","","","","","","null","","","","","","","","","","","","","","","","","","","","","","","","","","","","","","","","","","","",""
"265","s","","video-keyboard-response","29","72916","0.0-7.0-2.7","1","1","2026-02-24 06:00:14","3e9300109388e70555e79decfadaaa35","24.14.174.235","Mozilla/5.0 (Windows NT 10.0; Win64; x64) AppleWebKit/537.36 (KHTML, like Gecko) Chrome/145.0.0.0 Safari/537.36","WebKit","Chrome","145.0.0.0","Windows","10.0","https://ocyzhljrt7.cognition.run/editor","en-US,en;q=0.9","Prolific","hjk","","","","","","","[""8f3027eae18962e9.mp4""]","","","null","70931.90000009537","71683.5","73186.30000007153","73452.10000002384","practice","null","8","101","S","S_101.mp4","8f3027eae18962e9.mp4","S","true_positive","70931.90000009537","71683.5","73186.30000007153","73452.10000002384","-1","751.5999999046326","1502.8000000715256","265.7999999523163","-1","2520.1999999284744","","","","","","","","","","","","",""
"383"," ","","html-keyboard-response","30","73299","0.0-7.0-0.8","1","1","2026-02-24 06:00:14","3e9300109388e70555e79decfadaaa35","24.14.174.235","Mozilla/5.0 (Windows NT 10.0; Win64; x64) AppleWebKit/537.36 (KHTML, like Gecko) Chrome/145.0.0.0 Safari/537.36","WebKit","Chrome","145.0.0.0","Windows","10.0","https://ocyzhljrt7.cognition.run/editor","en-US,en;q=0.9","Prolific","hjk","","","","","","","<div style=""position:fixed; top:0; left:0; width:100vw; height:100vh; display:flex; align-items:center; justify-content:center; background:#f8f7f5;""><div style=""background:#fff; padding:2rem 3rem; border-radius:8px; border:1px solid #e0ddd8; box-shadow:0 2px 12px rgba(0,0,0,0.06); text-align:center;""><p style=""font-size:1.3rem; margin:0; color:#444;"">Press <strong style=""color:#800000;"">space</strong> to start the video</p></div></div>","","","null","","","","","","","","","","","","","","","","","","","","","","","","","","","","","","","","","","","",""
"null","null","","html-keyboard-response","31","74801","0.0-7.0-1.8","1","1","2026-02-24 06:00:14","3e9300109388e70555e79decfadaaa35","24.14.174.235","Mozilla/5.0 (Windows NT 10.0; Win64; x64) AppleWebKit/537.36 (KHTML, like Gecko) Chrome/145.0.0.0 Safari/537.36","WebKit","Chrome","145.0.0.0","Windows","10.0","https://ocyzhljrt7.cognition.run/editor","en-US,en;q=0.9","Prolific","hjk","","","","","","","","","","null","","","","","","","","","","","","","","","","","","","","","","","","","","","","","","","","","","","",""
"937","x","","video-keyboard-response","32","75739","0.0-7.0-2.8","1","1","2026-02-24 06:00:14","3e9300109388e70555e79decfadaaa35","24.14.174.235","Mozilla/5.0 (Windows NT 10.0; Win64; x64) AppleWebKit/537.36 (KHTML, like Gecko) Chrome/145.0.0.0 Safari/537.36","WebKit","Chrome","145.0.0.0","Windows","10.0","https://ocyzhljrt7.cognition.run/editor","en-US,en;q=0.9","Prolific","hjk","","","","","","","[""25633f52d0acb908.mp4""]","","","null","73452.20000004768","73835.70000004768","75338.10000002384","76275.90000009537","practice","null","9","101","X","X_101.mp4","25633f52d0acb908.mp4","X","true_negative","73452.20000004768","73835.70000004768","75338.10000002384","76275.90000009537","-1","383.5","1502.3999999761581","937.8000000715256","-1","2823.7000000476837","","","","","","","","","","","","",""
"463"," ","","html-keyboard-response","33","76203","0.0-7.0-0.9","1","1","2026-02-24 06:00:14","3e9300109388e70555e79decfadaaa35","24.14.174.235","Mozilla/5.0 (Windows NT 10.0; Win64; x64) AppleWebKit/537.36 (KHTML, like Gecko) Chrome/145.0.0.0 Safari/537.36","WebKit","Chrome","145.0.0.0","Windows","10.0","https://ocyzhljrt7.cognition.run/editor","en-US,en;q=0.9","Prolific","hjk","","","","","","","<div style=""position:fixed; top:0; left:0; width:100vw; height:100vh; display:flex; align-items:center; justify-content:center; background:#f8f7f5;""><div style=""background:#fff; padding:2rem 3rem; border-radius:8px; border:1px solid #e0ddd8; box-shadow:0 2px 12px rgba(0,0,0,0.06); text-align:center;""><p style=""font-size:1.3rem; margin:0; color:#444;"">Press <strong style=""color:#800000;"">space</strong> to start the video</p></div></div>","","","null","","","","","","","","","","","","","","","","","","","","","","","","","","","","","","","","","","","",""
"null","null","","html-keyboard-response","34","77705","0.0-7.0-1.9","1","1","2026-02-24 06:00:14","3e9300109388e70555e79decfadaaa35","24.14.174.235","Mozilla/5.0 (Windows NT 10.0; Win64; x64) AppleWebKit/537.36 (KHTML, like Gecko) Chrome/145.0.0.0 Safari/537.36","WebKit","Chrome","145.0.0.0","Windows","10.0","https://ocyzhljrt7.cognition.run/editor","en-US,en;q=0.9","Prolific","hjk","","","","","","","","","","null","","","","","","","","","","","","","","","","","","","","","","","","","","","","","","","","","","","",""
"305","s","","video-keyboard-response","35","78011","0.0-7.0-2.9","1","1","2026-02-24 06:00:14","3e9300109388e70555e79decfadaaa35","24.14.174.235","Mozilla/5.0 (Windows NT 10.0; Win64; x64) AppleWebKit/537.36 (KHTML, like Gecko) Chrome/145.0.0.0 Safari/537.36","WebKit","Chrome","145.0.0.0","Windows","10.0","https://ocyzhljrt7.cognition.run/editor","en-US,en;q=0.9","Prolific","hjk","","","","","","","[""00bfe7c73dd94f59.mp4""]","","","null","76276.60000002384","76739.70000004768","78242","78548","practice","null","10","103","S","S_103.mp4","00bfe7c73dd94f59.mp4","S","true_positive","76276.60000002384","76739.70000004768","78242","78548","-1","463.10000002384186","1502.2999999523163","306","-1","2271.399999976158","","","","","","","","","","","","",""
"1240","k","","html-keyboard-response","36","79252","0.0-8.0","1","1","2026-02-24 06:00:14","3e9300109388e70555e79decfadaaa35","24.14.174.235","Mozilla/5.0 (Windows NT 10.0; Win64; x64) AppleWebKit/537.36 (KHTML, like Gecko) Chrome/145.0.0.0 Safari/537.36","WebKit","Chrome","145.0.0.0","Windows","10.0","https://ocyzhljrt7.cognition.run/editor","en-US,en;q=0.9","Prolific","hjk","","","","","","","<div style=""position: fixed; top: 0; left: 0; width: 100vw; height: 100vh; display: flex; align-items: center; justify-content: center;""><div style=""max-width:50rem; width:92%; text-align:left;""><h2>Practice Complete</h2><p>You have completed the practice trials.</p><p>Press <strong>k</strong> to continue.</p></div></div>","","","","","","","","","","","","","","","","","","","","","","","","","","","{""time_on_screen"":1240,""start_timestamp"":78548.10000002384,""end_timestamp"":79788.10000002384}","{""trials"":[{""Trial Type"":""practice"",""Block Number"":null,""Trial Number"":1,""Stimulus Number"":""102"",""Stimulus Character"":""S"",""Original Filename"":""S_102.mp4"",""Obfuscated Filename"":""29c21eaa5bcbb7f0.mp4"",""Response Character"":""S"",""Response Classification"":""true_positive"",""Trial Presented Timestamp"":32963.10000002384,""Begin Stimulus Key Press Timestamp"":34067,""Stimulus Video Started Timestamp"":35568,""Subject Response Timestamp"":38251.300000071526,""Stimulus Video Completed Timestamp"":-1,""Pre Stimulus Video Wait Time"":1103.8999999761581,""Time Between Key Press and Video Start"":1501,""Response Time"":2683.3000000715256,""Time After Video End Before Decision Made"":-1,""Total Trial Time"":5288.200000047684},{""Trial Type"":""practice"",""Block Number"":null,""Trial Number"":2,""Stimulus Number"":""104"",""Stimulus Character"":""S"",""Original Filename"":""S_104.mp4"",""Obfuscated Filename"":""d9cf7a84cc36c1f5.mp4"",""Response Character"":""X"",""Response Classification"":""false_negative"",""Trial Presented Timestamp"":38252.10000002384,""Begin Stimulus Key Press Timestamp"":39171,""Stimulus Video Started Timestamp"":40673.10000002384,""Subject Response Timestamp"":43323,""Stimulus Video Completed Timestamp"":-1,""Pre Stimulus Video Wait Time"":918.8999999761581,""Time Between Key Press and Video Start"":1502.1000000238419,""Response Time"":2649.899999976158,""Time After Video End Before Decision Made"":-1,""Total Trial Time"":5070.899999976158},{""Trial Type"":""practice"",""Block Number"":null,""Trial Number"":3,""Stimulus Number"":""103"",""Stimulus Character"":""X"",""Original Filename"":""X_103.mp4"",""Obfuscated Filename"":""cd5386a6d800f085.mp4"",""Response Character"":""S"",""Response Classification"":""false_positive"",""Trial Presented Timestamp"":43323.60000002384,""Begin Stimulus Key Press Timestamp"":43826.90000009537,""Stimulus Video Started Timestamp"":45329.5,""Subject Response Timestamp"":48259.200000047684,""Stimulus Video Completed Timestamp"":-1,""Pre Stimulus Video Wait Time"":503.3000000715256,""Time Between Key Press and Video Start"":1502.5999999046326,""Response Time"":2929.7000000476837,""Time After Video End Before Decision Made"":-1,""Total Trial Time"":4935.600000023842},{""Trial Type"":""practice"",""Block Number"":null,""Trial Number"":4,""Stimulus Number"":""104"",""Stimulus Character"":""X"",""Original Filename"":""X_104.mp4"",""Obfuscated Filename"":""cdf0a8ac9d4c3069.mp4"",""Response Character"":""S"",""Response Classification"":""false_positive"",""Trial Presented Timestamp"":48259.800000071526,""Begin Stimulus Key Press Timestamp"":48923.10000002384,""Stimulus Video Started Timestamp"":50425.40000009537,""Subject Response Timestamp"":56923.800000071526,""Stimulus Video Completed Timestamp"":-1,""Pre Stimulus Video Wait Time"":663.2999999523163,""Time Between Key Press and Video Start"":1502.3000000715256,""Response Time"":6498.399999976158,""Time After Video End Before Decision Made"":-1,""Total Trial Time"":8664},{""Trial Type"":""practice"",""Block Number"":null,""Trial Number"":5,""Stimulus Number"":""102"",""Stimulus Character"":""X"",""Original Filename"":""X_102.mp4"",""Obfuscated Filename"":""e667deea4ad1a187.mp4"",""Response Character"":""X"",""Response Classification"":""true_negative"",""Trial Presented Timestamp"":56924.40000009537,""Begin Stimulus Key Press Timestamp"":62083.40000009537,""Stimulus Video Started Timestamp"":63585.800000071526,""Subject Response Timestamp"":66099.70000004768,""Stimulus Video Completed Timestamp"":-1,""Pre Stimulus Video Wait Time"":5159,""Time Between Key Press and Video Start"":1502.3999999761581,""Response Time"":2513.899999976158,""Time After Video End Before Decision Made"":-1,""Total Trial Time"":9175.299999952316},{""Trial Type"":""practice"",""Block Number"":null,""Trial Number"":6,""Stimulus Number"":""100"",""Stimulus Character"":""X"",""Original Filename"":""X_100.mp4"",""Obfuscated Filename"":""89aaba2d4548f24f.mp4"",""Response Character"":""S"",""Response Classification"":""false_positive"",""Trial Presented Timestamp"":66100.80000007153,""Begin Stimulus Key Press Timestamp"":66787.5,""Stimulus Video Started Timestamp"":68289.30000007153,""Subject Response Timestamp"":68611.90000009537,""Stimulus Video Completed Timestamp"":-1,""Pre Stimulus Video Wait Time"":686.6999999284744,""Time Between Key Press and Video Start"":1501.8000000715256,""Response Time"":322.60000002384186,""Time After Video End Before Decision Made"":-1,""Total Trial Time"":2511.100000023842},{""Trial Type"":""practice"",""Block Number"":null,""Trial Number"":7,""Stimulus Number"":""100"",""Stimulus Character"":""S"",""Original Filename"":""S_100.mp4"",""Obfuscated Filename"":""2b45b593795e70a5.mp4"",""Response Character"":""X"",""Response Classification"":""false_negative"",""Trial Presented Timestamp"":68611.90000009537,""Begin Stimulus Key Press Timestamp"":69139.90000009537,""Stimulus Video Started Timestamp"":70641.80000007153,""Subject Response Timestamp"":70931.80000007153,""Stimulus Video Completed Timestamp"":-1,""Pre Stimulus Video Wait Time"":528,""Time Between Key Press and Video Start"":1501.8999999761581,""Response Time"":290,""Time After Video End Before Decision Made"":-1,""Total Trial Time"":2319.899999976158},{""Trial Type"":""practice"",""Block Number"":null,""Trial Number"":8,""Stimulus Number"":""101"",""Stimulus Character"":""S"",""Original Filename"":""S_101.mp4"",""Obfuscated Filename"":""8f3027eae18962e9.mp4"",""Response Character"":""S"",""Response Classification"":""true_positive"",""Trial Presented Timestamp"":70931.90000009537,""Begin Stimulus Key Press Timestamp"":71683.5,""Stimulus Video Started Timestamp"":73186.30000007153,""Subject Response Timestamp"":73452.10000002384,""Stimulus Video Completed Timestamp"":-1,""Pre Stimulus Video Wait Time"":751.5999999046326,""Time Between Key Press and Video Start"":1502.8000000715256,""Response Time"":265.7999999523163,""Time After Video End Before Decision Made"":-1,""Total Trial Time"":2520.1999999284744},{""Trial Type"":""practice"",""Block Number"":null,""Trial Number"":9,""Stimulus Number"":""101"",""Stimulus Character"":""X"",""Original Filename"":""X_101.mp4"",""Obfuscated Filename"":""25633f52d0acb908.mp4"",""Response Character"":""X"",""Response Classification"":""true_negative"",""Trial Presented Timestamp"":73452.20000004768,""Begin Stimulus Key Press Timestamp"":73835.70000004768,""Stimulus Video Started Timestamp"":75338.10000002384,""Subject Response Timestamp"":76275.90000009537,""Stimulus Video Completed Timestamp"":-1,""Pre Stimulus Video Wait Time"":383.5,""Time Between Key Press and Video Start"":1502.3999999761581,""Response Time"":937.8000000715256,""Time After Video End Before Decision Made"":-1,""Total Trial Time"":2823.7000000476837},{""Trial Type"":""practice"",""Block Number"":null,""Trial Number"":10,""Stimulus Number"":""103"",""Stimulus Character"":""S"",""Original Filename"":""S_103.mp4"",""Obfuscated Filename"":""00bfe7c73dd94f59.mp4"",""Response Character"":""S"",""Response Classification"":""true_positive"",""Trial Presented Timestamp"":76276.60000002384,""Begin Stimulus Key Press Timestamp"":76739.70000004768,""Stimulus Video Started Timestamp"":78242,""Subject Response Timestamp"":78548,""Stimulus Video Completed Timestamp"":-1,""Pre Stimulus Video Wait Time"":463.10000002384186,""Time Between Key Press and Video Start"":1502.2999999523163,""Response Time"":306,""Time After Video End Before Decision Made"":-1,""Total Trial Time"":2271.399999976158}]}","","","","","","","","","","",""
"1255","k","","html-keyboard-response","37","80508","0.0-9.0","1","1","2026-02-24 06:00:14","3e9300109388e70555e79decfadaaa35","24.14.174.235","Mozilla/5.0 (Windows NT 10.0; Win64; x64) AppleWebKit/537.36 (KHTML, like Gecko) Chrome/145.0.0.0 Safari/537.36","WebKit","Chrome","145.0.0.0","Windows","10.0","https://ocyzhljrt7.cognition.run/editor","en-US,en;q=0.9","Prolific","hjk","","","","","","","<div style=""position: fixed; top: 0; left: 0; width: 100vw; height: 100vh; display: flex; align-items: center; justify-content: center;""><div style=""max-width:50rem; width:92%; text-align:left;""><h2>Main Task</h2><p>You will now begin the main portion of the task.</p><p>As a reminder: you will watch a series of short videos that gradually progress from static toward one of two letters, either an <strong>S</strong> or an <strong>X</strong>. Your task is to identify which letter the video is progressing towards and press the corresponding key as quickly as possible.</p><p>The main task consists of two blocks of trials with a short break between them.</p><p>Faster correct responses improve your performance score; performance influences your odds to win a raffle for an Amazon gift card.</p><p>Press <strong>k</strong> to begin.</p></div></div>","","","","","","","","","","","","","","","","","","","","","","","","","","","","","{""time_on_screen"":1255,""start_timestamp"":79789.30000007153,""end_timestamp"":81044.30000007153}","","","","","","","","","",""
"719"," ","","html-keyboard-response","38","81227","0.0-10.0-0.0","1","1","2026-02-24 06:00:14","3e9300109388e70555e79decfadaaa35","24.14.174.235","Mozilla/5.0 (Windows NT 10.0; Win64; x64) AppleWebKit/537.36 (KHTML, like Gecko) Chrome/145.0.0.0 Safari/537.36","WebKit","Chrome","145.0.0.0","Windows","10.0","https://ocyzhljrt7.cognition.run/editor","en-US,en;q=0.9","Prolific","hjk","","","","","","","<div style=""position:fixed; top:0; left:0; width:100vw; height:100vh; display:flex; align-items:center; justify-content:center; background:#f8f7f5;""><div style=""background:#fff; padding:2rem 3rem; border-radius:8px; border:1px solid #e0ddd8; box-shadow:0 2px 12px rgba(0,0,0,0.06); text-align:center;""><p style=""font-size:1.3rem; margin:0; color:#444;"">Press <strong style=""color:#800000;"">space</strong> to start the video</p></div></div>","","","1","","","","","","","","","","","","","","","","","","","","","","","","","","","","","","","","","","","",""
"null","null","","html-keyboard-response","39","82730","0.0-10.0-1.0","1","1","2026-02-24 06:00:14","3e9300109388e70555e79decfadaaa35","24.14.174.235","Mozilla/5.0 (Windows NT 10.0; Win64; x64) AppleWebKit/537.36 (KHTML, like Gecko) Chrome/145.0.0.0 Safari/537.36","WebKit","Chrome","145.0.0.0","Windows","10.0","https://ocyzhljrt7.cognition.run/editor","en-US,en;q=0.9","Prolific","hjk","","","","","","","","","","1","","","","","","","","","","","","","","","","","","","","","","","","","","","","","","","","","","","",""
"392","s","","video-keyboard-response","40","83124","0.0-10.0-2.0","1","1","2026-02-24 06:00:14","3e9300109388e70555e79decfadaaa35","24.14.174.235","Mozilla/5.0 (Windows NT 10.0; Win64; x64) AppleWebKit/537.36 (KHTML, like Gecko) Chrome/145.0.0.0 Safari/537.36","WebKit","Chrome","145.0.0.0","Windows","10.0","https://ocyzhljrt7.cognition.run/editor","en-US,en;q=0.9","Prolific","hjk","","","","","","","[""ae5b8c68ea6ce8c0.mp4""]","","","1","81045.30000007153","81763.90000009537","83267.10000002384","83660.10000002384","actual","1","1","99","X","X_99.mp4","ae5b8c68ea6ce8c0.mp4","S","false_positive","81045.30000007153","81763.90000009537","83267.10000002384","83660.10000002384","-1","718.6000000238419","1503.1999999284744","393","-1","2614.7999999523163","","","","","","","","","","","","",""
"592"," ","","html-keyboard-response","41","83716","0.0-10.0-0.1","1","1","2026-02-24 06:00:14","3e9300109388e70555e79decfadaaa35","24.14.174.235","Mozilla/5.0 (Windows NT 10.0; Win64; x64) AppleWebKit/537.36 (KHTML, like Gecko) Chrome/145.0.0.0 Safari/537.36","WebKit","Chrome","145.0.0.0","Windows","10.0","https://ocyzhljrt7.cognition.run/editor","en-US,en;q=0.9","Prolific","hjk","","","","","","","<div style=""position:fixed; top:0; left:0; width:100vw; height:100vh; display:flex; align-items:center; justify-content:center; background:#f8f7f5;""><div style=""background:#fff; padding:2rem 3rem; border-radius:8px; border:1px solid #e0ddd8; box-shadow:0 2px 12px rgba(0,0,0,0.06); text-align:center;""><p style=""font-size:1.3rem; margin:0; color:#444;"">Press <strong style=""color:#800000;"">space</strong> to start the video</p></div></div>","","","1","","","","","","","","","","","","","","","","","","","","","","","","","","","","","","","","","","","",""
"null","null","","html-keyboard-response","42","85218","0.0-10.0-1.1","1","1","2026-02-24 06:00:14","3e9300109388e70555e79decfadaaa35","24.14.174.235","Mozilla/5.0 (Windows NT 10.0; Win64; x64) AppleWebKit/537.36 (KHTML, like Gecko) Chrome/145.0.0.0 Safari/537.36","WebKit","Chrome","145.0.0.0","Windows","10.0","https://ocyzhljrt7.cognition.run/editor","en-US,en;q=0.9","Prolific","hjk","","","","","","","","","","1","","","","","","","","","","","","","","","","","","","","","","","","","","","","","","","","","","","",""
"300","x","","video-keyboard-response","43","85519","0.0-10.0-2.1","1","1","2026-02-24 06:00:14","3e9300109388e70555e79decfadaaa35","24.14.174.235","Mozilla/5.0 (Windows NT 10.0; Win64; x64) AppleWebKit/537.36 (KHTML, like Gecko) Chrome/145.0.0.0 Safari/537.36","WebKit","Chrome","145.0.0.0","Windows","10.0","https://ocyzhljrt7.cognition.run/editor","en-US,en;q=0.9","Prolific","hjk","","","","","","","[""04d0aeb7e364c413.mp4""]","","","1","83660.30000007153","84252.20000004768","85755.20000004768","86055.10000002384","actual","1","2","85","X","X_85.mp4","04d0aeb7e364c413.mp4","X","true_negative","83660.30000007153","84252.20000004768","85755.20000004768","86055.10000002384","-1","591.8999999761581","1503","299.89999997615814","-1","2394.7999999523163","","","","","","","","","","","","",""
"525"," ","","html-keyboard-response","44","86044","0.0-10.0-0.2","1","1","2026-02-24 06:00:14","3e9300109388e70555e79decfadaaa35","24.14.174.235","Mozilla/5.0 (Windows NT 10.0; Win64; x64) AppleWebKit/537.36 (KHTML, like Gecko) Chrome/145.0.0.0 Safari/537.36","WebKit","Chrome","145.0.0.0","Windows","10.0","https://ocyzhljrt7.cognition.run/editor","en-US,en;q=0.9","Prolific","hjk","","","","","","","<div style=""position:fixed; top:0; left:0; width:100vw; height:100vh; display:flex; align-items:center; justify-content:center; background:#f8f7f5;""><div style=""background:#fff; padding:2rem 3rem; border-radius:8px; border:1px solid #e0ddd8; box-shadow:0 2px 12px rgba(0,0,0,0.06); text-align:center;""><p style=""font-size:1.3rem; margin:0; color:#444;"">Press <strong style=""color:#800000;"">space</strong> to start the video</p></div></div>","","","1","","","","","","","","","","","","","","","","","","","","","","","","","","","","","","","","","","","",""
"null","null","","html-keyboard-response","45","87546","0.0-10.0-1.2","1","1","2026-02-24 06:00:14","3e9300109388e70555e79decfadaaa35","24.14.174.235","Mozilla/5.0 (Windows NT 10.0; Win64; x64) AppleWebKit/537.36 (KHTML, like Gecko) Chrome/145.0.0.0 Safari/537.36","WebKit","Chrome","145.0.0.0","Windows","10.0","https://ocyzhljrt7.cognition.run/editor","en-US,en;q=0.9","Prolific","hjk","","","","","","","","","","1","","","","","","","","","","","","","","","","","","","","","","","","","","","","","","","","","","","",""
"1313","x","","video-keyboard-response","46","88860","0.0-10.0-2.2","1","1","2026-02-24 06:00:14","3e9300109388e70555e79decfadaaa35","24.14.174.235","Mozilla/5.0 (Windows NT 10.0; Win64; x64) AppleWebKit/537.36 (KHTML, like Gecko) Chrome/145.0.0.0 Safari/537.36","WebKit","Chrome","145.0.0.0","Windows","10.0","https://ocyzhljrt7.cognition.run/editor","en-US,en;q=0.9","Prolific","hjk","","","","","","","[""c8e31eee37098077.mp4""]","","","1","86055.30000007153","86580.30000007153","88083.20000004768","89396.30000007153","actual","1","3","94","X","X_94.mp4","c8e31eee37098077.mp4","X","true_negative","86055.30000007153","86580.30000007153","88083.20000004768","89396.30000007153","-1","525","1502.8999999761581","1313.1000000238419","-1","3341","","","","","","","","","","","","",""
"759"," ","","html-keyboard-response","47","89620","0.0-10.0-0.3","1","1","2026-02-24 06:00:14","3e9300109388e70555e79decfadaaa35","24.14.174.235","Mozilla/5.0 (Windows NT 10.0; Win64; x64) AppleWebKit/537.36 (KHTML, like Gecko) Chrome/145.0.0.0 Safari/537.36","WebKit","Chrome","145.0.0.0","Windows","10.0","https://ocyzhljrt7.cognition.run/editor","en-US,en;q=0.9","Prolific","hjk","","","","","","","<div style=""position:fixed; top:0; left:0; width:100vw; height:100vh; display:flex; align-items:center; justify-content:center; background:#f8f7f5;""><div style=""background:#fff; padding:2rem 3rem; border-radius:8px; border:1px solid #e0ddd8; box-shadow:0 2px 12px rgba(0,0,0,0.06); text-align:center;""><p style=""font-size:1.3rem; margin:0; color:#444;"">Press <strong style=""color:#800000;"">space</strong> to start the video</p></div></div>","","","1","","","","","","","","","","","","","","","","","","","","","","","","","","","","","","","","","","","",""
"null","null","","html-keyboard-response","48","91122","0.0-10.0-1.3","1","1","2026-02-24 06:00:14","3e9300109388e70555e79decfadaaa35","24.14.174.235","Mozilla/5.0 (Windows NT 10.0; Win64; x64) AppleWebKit/537.36 (KHTML, like Gecko) Chrome/145.0.0.0 Safari/537.36","WebKit","Chrome","145.0.0.0","Windows","10.0","https://ocyzhljrt7.cognition.run/editor","en-US,en;q=0.9","Prolific","hjk","","","","","","","","","","1","","","","","","","","","","","","","","","","","","","","","","","","","","","","","","","","","","","",""
"744","x","","video-keyboard-response","49","91868","0.0-10.0-2.3","1","1","2026-02-24 06:00:14","3e9300109388e70555e79decfadaaa35","24.14.174.235","Mozilla/5.0 (Windows NT 10.0; Win64; x64) AppleWebKit/537.36 (KHTML, like Gecko) Chrome/145.0.0.0 Safari/537.36","WebKit","Chrome","145.0.0.0","Windows","10.0","https://ocyzhljrt7.cognition.run/editor","en-US,en;q=0.9","Prolific","hjk","","","","","","","[""5fcfbb321eacd1b0.mp4""]","","","1","89397.40000009537","90156.60000002384","91659.70000004768","92404.20000004768","actual","1","4","69","S","S_69.mp4","5fcfbb321eacd1b0.mp4","X","false_negative","89397.40000009537","90156.60000002384","91659.70000004768","92404.20000004768","-1","759.1999999284744","1503.1000000238419","744.5","-1","3006.7999999523163","","","","","","","","","","","","",""
"711"," ","","html-keyboard-response","50","92580","0.0-10.0-0.4","1","1","2026-02-24 06:00:14","3e9300109388e70555e79decfadaaa35","24.14.174.235","Mozilla/5.0 (Windows NT 10.0; Win64; x64) AppleWebKit/537.36 (KHTML, like Gecko) Chrome/145.0.0.0 Safari/537.36","WebKit","Chrome","145.0.0.0","Windows","10.0","https://ocyzhljrt7.cognition.run/editor","en-US,en;q=0.9","Prolific","hjk","","","","","","","<div style=""position:fixed; top:0; left:0; width:100vw; height:100vh; display:flex; align-items:center; justify-content:center; background:#f8f7f5;""><div style=""background:#fff; padding:2rem 3rem; border-radius:8px; border:1px solid #e0ddd8; box-shadow:0 2px 12px rgba(0,0,0,0.06); text-align:center;""><p style=""font-size:1.3rem; margin:0; color:#444;"">Press <strong style=""color:#800000;"">space</strong> to start the video</p></div></div>","","","1","","","","","","","","","","","","","","","","","","","","","","","","","","","","","","","","","","","",""
"null","null","","html-keyboard-response","51","94081","0.0-10.0-1.4","1","1","2026-02-24 06:00:14","3e9300109388e70555e79decfadaaa35","24.14.174.235","Mozilla/5.0 (Windows NT 10.0; Win64; x64) AppleWebKit/537.36 (KHTML, like Gecko) Chrome/145.0.0.0 Safari/537.36","WebKit","Chrome","145.0.0.0","Windows","10.0","https://ocyzhljrt7.cognition.run/editor","en-US,en;q=0.9","Prolific","hjk","","","","","","","","","","1","","","","","","","","","","","","","","","","","","","","","","","","","","","","","","","","","","","",""
"441","s","","video-keyboard-response","52","94524","0.0-10.0-2.4","1","1","2026-02-24 06:00:14","3e9300109388e70555e79decfadaaa35","24.14.174.235","Mozilla/5.0 (Windows NT 10.0; Win64; x64) AppleWebKit/537.36 (KHTML, like Gecko) Chrome/145.0.0.0 Safari/537.36","WebKit","Chrome","145.0.0.0","Windows","10.0","https://ocyzhljrt7.cognition.run/editor","en-US,en;q=0.9","Prolific","hjk","","","","","","","[""1c5446376b4e52fc.mp4""]","","","1","92405.20000004768","93116.20000004768","94619","95060.40000009537","actual","1","5","50","S","S_50.mp4","1c5446376b4e52fc.mp4","S","true_positive","92405.20000004768","93116.20000004768","94619","95060.40000009537","-1","711","1502.7999999523163","441.40000009536743","-1","2655.2000000476837","","","","","","","","","","","","",""
"400"," ","","html-keyboard-response","53","94925","0.0-10.0-0.5","1","1","2026-02-24 06:00:14","3e9300109388e70555e79decfadaaa35","24.14.174.235","Mozilla/5.0 (Windows NT 10.0; Win64; x64) AppleWebKit/537.36 (KHTML, like Gecko) Chrome/145.0.0.0 Safari/537.36","WebKit","Chrome","145.0.0.0","Windows","10.0","https://ocyzhljrt7.cognition.run/editor","en-US,en;q=0.9","Prolific","hjk","","","","","","","<div style=""position:fixed; top:0; left:0; width:100vw; height:100vh; display:flex; align-items:center; justify-content:center; background:#f8f7f5;""><div style=""background:#fff; padding:2rem 3rem; border-radius:8px; border:1px solid #e0ddd8; box-shadow:0 2px 12px rgba(0,0,0,0.06); text-align:center;""><p style=""font-size:1.3rem; margin:0; color:#444;"">Press <strong style=""color:#800000;"">space</strong> to start the video</p></div></div>","","","1","","","","","","","","","","","","","","","","","","","","","","","","","","","","","","","","","","","",""
"null","null","","html-keyboard-response","54","96426","0.0-10.0-1.5","1","1","2026-02-24 06:00:14","3e9300109388e70555e79decfadaaa35","24.14.174.235","Mozilla/5.0 (Windows NT 10.0; Win64; x64) AppleWebKit/537.36 (KHTML, like Gecko) Chrome/145.0.0.0 Safari/537.36","WebKit","Chrome","145.0.0.0","Windows","10.0","https://ocyzhljrt7.cognition.run/editor","en-US,en;q=0.9","Prolific","hjk","","","","","","","","","","1","","","","","","","","","","","","","","","","","","","","","","","","","","","","","","","","","","","",""
"856","x","","video-keyboard-response","55","97284","0.0-10.0-2.5","1","1","2026-02-24 06:00:14","3e9300109388e70555e79decfadaaa35","24.14.174.235","Mozilla/5.0 (Windows NT 10.0; Win64; x64) AppleWebKit/537.36 (KHTML, like Gecko) Chrome/145.0.0.0 Safari/537.36","WebKit","Chrome","145.0.0.0","Windows","10.0","https://ocyzhljrt7.cognition.run/editor","en-US,en;q=0.9","Prolific","hjk","","","","","","","[""2dd73b9733251c02.mp4""]","","","1","95060.5","95461","96963.60000002384","97820.40000009537","actual","1","6","4","S","S_4.mp4","2dd73b9733251c02.mp4","X","false_negative","95060.5","95461","96963.60000002384","97820.40000009537","-1","400.5","1502.6000000238419","856.8000000715256","-1","2759.9000000953674","","","","","","","","","","","","",""
"1903","k","","html-keyboard-response","56","99186","0.0-11.0","1","1","2026-02-24 06:00:14","3e9300109388e70555e79decfadaaa35","24.14.174.235","Mozilla/5.0 (Windows NT 10.0; Win64; x64) AppleWebKit/537.36 (KHTML, like Gecko) Chrome/145.0.0.0 Safari/537.36","WebKit","Chrome","145.0.0.0","Windows","10.0","https://ocyzhljrt7.cognition.run/editor","en-US,en;q=0.9","Prolific","hjk","","","","","","","<div style=""position: fixed; top: 0; left: 0; width: 100vw; height: 100vh; display: flex; align-items: center; justify-content: center;""><div style=""max-width:50rem; width:92%; text-align:left;""><h2>Break</h2><p>You have completed the first block of trials.</p><p>Take a short break if you like, then press <strong>k</strong> to continue to the next block.</p></div></div>","","","","","","","","","","","","","","","","","","","","","","","","","","","","","","{""reaction_time_ms"":1903,""start_timestamp"":97821.60000002384,""end_timestamp"":99724.60000002384}","{""trials"":[{""Trial Type"":""actual"",""Block Number"":1,""Trial Number"":1,""Stimulus Number"":""99"",""Stimulus Character"":""X"",""Original Filename"":""X_99.mp4"",""Obfuscated Filename"":""ae5b8c68ea6ce8c0.mp4"",""Response Character"":""S"",""Response Classification"":""false_positive"",""Trial Presented Timestamp"":81045.30000007153,""Begin Stimulus Key Press Timestamp"":81763.90000009537,""Stimulus Video Started Timestamp"":83267.10000002384,""Subject Response Timestamp"":83660.10000002384,""Stimulus Video Completed Timestamp"":-1,""Pre Stimulus Video Wait Time"":718.6000000238419,""Time Between Key Press and Video Start"":1503.1999999284744,""Response Time"":393,""Time After Video End Before Decision Made"":-1,""Total Trial Time"":2614.7999999523163},{""Trial Type"":""actual"",""Block Number"":1,""Trial Number"":2,""Stimulus Number"":""85"",""Stimulus Character"":""X"",""Original Filename"":""X_85.mp4"",""Obfuscated Filename"":""04d0aeb7e364c413.mp4"",""Response Character"":""X"",""Response Classification"":""true_negative"",""Trial Presented Timestamp"":83660.30000007153,""Begin Stimulus Key Press Timestamp"":84252.20000004768,""Stimulus Video Started Timestamp"":85755.20000004768,""Subject Response Timestamp"":86055.10000002384,""Stimulus Video Completed Timestamp"":-1,""Pre Stimulus Video Wait Time"":591.8999999761581,""Time Between Key Press and Video Start"":1503,""Response Time"":299.89999997615814,""Time After Video End Before Decision Made"":-1,""Total Trial Time"":2394.7999999523163},{""Trial Type"":""actual"",""Block Number"":1,""Trial Number"":3,""Stimulus Number"":""94"",""Stimulus Character"":""X"",""Original Filename"":""X_94.mp4"",""Obfuscated Filename"":""c8e31eee37098077.mp4"",""Response Character"":""X"",""Response Classification"":""true_negative"",""Trial Presented Timestamp"":86055.30000007153,""Begin Stimulus Key Press Timestamp"":86580.30000007153,""Stimulus Video Started Timestamp"":88083.20000004768,""Subject Response Timestamp"":89396.30000007153,""Stimulus Video Completed Timestamp"":-1,""Pre Stimulus Video Wait Time"":525,""Time Between Key Press and Video Start"":1502.8999999761581,""Response Time"":1313.1000000238419,""Time After Video End Before Decision Made"":-1,""Total Trial Time"":3341},{""Trial Type"":""actual"",""Block Number"":1,""Trial Number"":4,""Stimulus Number"":""69"",""Stimulus Character"":""S"",""Original Filename"":""S_69.mp4"",""Obfuscated Filename"":""5fcfbb321eacd1b0.mp4"",""Response Character"":""X"",""Response Classification"":""false_negative"",""Trial Presented Timestamp"":89397.40000009537,""Begin Stimulus Key Press Timestamp"":90156.60000002384,""Stimulus Video Started Timestamp"":91659.70000004768,""Subject Response Timestamp"":92404.20000004768,""Stimulus Video Completed Timestamp"":-1,""Pre Stimulus Video Wait Time"":759.1999999284744,""Time Between Key Press and Video Start"":1503.1000000238419,""Response Time"":744.5,""Time After Video End Before Decision Made"":-1,""Total Trial Time"":3006.7999999523163},{""Trial Type"":""actual"",""Block Number"":1,""Trial Number"":5,""Stimulus Number"":""50"",""Stimulus Character"":""S"",""Original Filename"":""S_50.mp4"",""Obfuscated Filename"":""1c5446376b4e52fc.mp4"",""Response Character"":""S"",""Response Classification"":""true_positive"",""Trial Presented Timestamp"":92405.20000004768,""Begin Stimulus Key Press Timestamp"":93116.20000004768,""Stimulus Video Started Timestamp"":94619,""Subject Response Timestamp"":95060.40000009537,""Stimulus Video Completed Timestamp"":-1,""Pre Stimulus Video Wait Time"":711,""Time Between Key Press and Video Start"":1502.7999999523163,""Response Time"":441.40000009536743,""Time After Video End Before Decision Made"":-1,""Total Trial Time"":2655.2000000476837},{""Trial Type"":""actual"",""Block Number"":1,""Trial Number"":6,""Stimulus Number"":""4"",""Stimulus Character"":""S"",""Original Filename"":""S_4.mp4"",""Obfuscated Filename"":""2dd73b9733251c02.mp4"",""Response Character"":""X"",""Response Classification"":""false_negative"",""Trial Presented Timestamp"":95060.5,""Begin Stimulus Key Press Timestamp"":95461,""Stimulus Video Started Timestamp"":96963.60000002384,""Subject Response Timestamp"":97820.40000009537,""Stimulus Video Completed Timestamp"":-1,""Pre Stimulus Video Wait Time"":400.5,""Time Between Key Press and Video Start"":1502.6000000238419,""Response Time"":856.8000000715256,""Time After Video End Before Decision Made"":-1,""Total Trial Time"":2759.9000000953674}]}","","","","","","","",""
"1215"," ","","html-keyboard-response","57","100402","0.0-12.0-0.0","1","1","2026-02-24 06:00:14","3e9300109388e70555e79decfadaaa35","24.14.174.235","Mozilla/5.0 (Windows NT 10.0; Win64; x64) AppleWebKit/537.36 (KHTML, like Gecko) Chrome/145.0.0.0 Safari/537.36","WebKit","Chrome","145.0.0.0","Windows","10.0","https://ocyzhljrt7.cognition.run/editor","en-US,en;q=0.9","Prolific","hjk","","","","","","","<div style=""position:fixed; top:0; left:0; width:100vw; height:100vh; display:flex; align-items:center; justify-content:center; background:#f8f7f5;""><div style=""background:#fff; padding:2rem 3rem; border-radius:8px; border:1px solid #e0ddd8; box-shadow:0 2px 12px rgba(0,0,0,0.06); text-align:center;""><p style=""font-size:1.3rem; margin:0; color:#444;"">Press <strong style=""color:#800000;"">space</strong> to start the video</p></div></div>","","","2","","","","","","","","","","","","","","","","","","","","","","","","","","","","","","","","","","","",""
"null","null","","html-keyboard-response","58","101904","0.0-12.0-1.0","1","1","2026-02-24 06:00:14","3e9300109388e70555e79decfadaaa35","24.14.174.235","Mozilla/5.0 (Windows NT 10.0; Win64; x64) AppleWebKit/537.36 (KHTML, like Gecko) Chrome/145.0.0.0 Safari/537.36","WebKit","Chrome","145.0.0.0","Windows","10.0","https://ocyzhljrt7.cognition.run/editor","en-US,en;q=0.9","Prolific","hjk","","","","","","","","","","2","","","","","","","","","","","","","","","","","","","","","","","","","","","","","","","","","","","",""
"297","s","","video-keyboard-response","59","102202","0.0-12.0-2.0","1","1","2026-02-24 06:00:14","3e9300109388e70555e79decfadaaa35","24.14.174.235","Mozilla/5.0 (Windows NT 10.0; Win64; x64) AppleWebKit/537.36 (KHTML, like Gecko) Chrome/145.0.0.0 Safari/537.36","WebKit","Chrome","145.0.0.0","Windows","10.0","https://ocyzhljrt7.cognition.run/editor","en-US,en;q=0.9","Prolific","hjk","","","","","","","[""3109b391d8c2d928.mp4""]","","","2","99725.70000004768","100940.60000002384","102443.40000009537","102740.60000002384","actual","2","1","46","S","S_46.mp4","3109b391d8c2d928.mp4","S","true_positive","99725.70000004768","100940.60000002384","102443.40000009537","102740.60000002384","-1","1214.8999999761581","1502.8000000715256","297.1999999284744","-1","3014.899999976158","","","","","","","","","","","","",""
"376"," ","","html-keyboard-response","60","102578","0.0-12.0-0.1","1","1","2026-02-24 06:00:14","3e9300109388e70555e79decfadaaa35","24.14.174.235","Mozilla/5.0 (Windows NT 10.0; Win64; x64) AppleWebKit/537.36 (KHTML, like Gecko) Chrome/145.0.0.0 Safari/537.36","WebKit","Chrome","145.0.0.0","Windows","10.0","https://ocyzhljrt7.cognition.run/editor","en-US,en;q=0.9","Prolific","hjk","","","","","","","<div style=""position:fixed; top:0; left:0; width:100vw; height:100vh; display:flex; align-items:center; justify-content:center; background:#f8f7f5;""><div style=""background:#fff; padding:2rem 3rem; border-radius:8px; border:1px solid #e0ddd8; box-shadow:0 2px 12px rgba(0,0,0,0.06); text-align:center;""><p style=""font-size:1.3rem; margin:0; color:#444;"">Press <strong style=""color:#800000;"">space</strong> to start the video</p></div></div>","","","2","","","","","","","","","","","","","","","","","","","","","","","","","","","","","","","","","","","",""
"null","null","","html-keyboard-response","61","104079","0.0-12.0-1.1","1","1","2026-02-24 06:00:14","3e9300109388e70555e79decfadaaa35","24.14.174.235","Mozilla/5.0 (Windows NT 10.0; Win64; x64) AppleWebKit/537.36 (KHTML, like Gecko) Chrome/145.0.0.0 Safari/537.36","WebKit","Chrome","145.0.0.0","Windows","10.0","https://ocyzhljrt7.cognition.run/editor","en-US,en;q=0.9","Prolific","hjk","","","","","","","","","","2","","","","","","","","","","","","","","","","","","","","","","","","","","","","","","","","","","","",""
"274","x","","video-keyboard-response","62","104354","0.0-12.0-2.1","1","1","2026-02-24 06:00:14","3e9300109388e70555e79decfadaaa35","24.14.174.235","Mozilla/5.0 (Windows NT 10.0; Win64; x64) AppleWebKit/537.36 (KHTML, like Gecko) Chrome/145.0.0.0 Safari/537.36","WebKit","Chrome","145.0.0.0","Windows","10.0","https://ocyzhljrt7.cognition.run/editor","en-US,en;q=0.9","Prolific","hjk","","","","","","","[""e0b31205279702b6.mp4""]","","","2","102740.70000004768","103116.70000004768","104618.20000004768","104892.80000007153","actual","2","2","53","X","X_53.mp4","e0b31205279702b6.mp4","X","true_negative","102740.70000004768","103116.70000004768","104618.20000004768","104892.80000007153","-1","376","1501.5","274.60000002384186","-1","2152.100000023842","","","","","","","","","","","","",""
"335"," ","","html-keyboard-response","63","104690","0.0-12.0-0.2","1","1","2026-02-24 06:00:14","3e9300109388e70555e79decfadaaa35","24.14.174.235","Mozilla/5.0 (Windows NT 10.0; Win64; x64) AppleWebKit/537.36 (KHTML, like Gecko) Chrome/145.0.0.0 Safari/537.36","WebKit","Chrome","145.0.0.0","Windows","10.0","https://ocyzhljrt7.cognition.run/editor","en-US,en;q=0.9","Prolific","hjk","","","","","","","<div style=""position:fixed; top:0; left:0; width:100vw; height:100vh; display:flex; align-items:center; justify-content:center; background:#f8f7f5;""><div style=""background:#fff; padding:2rem 3rem; border-radius:8px; border:1px solid #e0ddd8; box-shadow:0 2px 12px rgba(0,0,0,0.06); text-align:center;""><p style=""font-size:1.3rem; margin:0; color:#444;"">Press <strong style=""color:#800000;"">space</strong> to start the video</p></div></div>","","","2","","","","","","","","","","","","","","","","","","","","","","","","","","","","","","","","","","","",""
"null","null","","html-keyboard-response","64","106192","0.0-12.0-1.2","1","1","2026-02-24 06:00:14","3e9300109388e70555e79decfadaaa35","24.14.174.235","Mozilla/5.0 (Windows NT 10.0; Win64; x64) AppleWebKit/537.36 (KHTML, like Gecko) Chrome/145.0.0.0 Safari/537.36","WebKit","Chrome","145.0.0.0","Windows","10.0","https://ocyzhljrt7.cognition.run/editor","en-US,en;q=0.9","Prolific","hjk","","","","","","","","","","2","","","","","","","","","","","","","","","","","","","","","","","","","","","","","","","","","","","",""
"345","s","","video-keyboard-response","65","106539","0.0-12.0-2.2","1","1","2026-02-24 06:00:14","3e9300109388e70555e79decfadaaa35","24.14.174.235","Mozilla/5.0 (Windows NT 10.0; Win64; x64) AppleWebKit/537.36 (KHTML, like Gecko) Chrome/145.0.0.0 Safari/537.36","WebKit","Chrome","145.0.0.0","Windows","10.0","https://ocyzhljrt7.cognition.run/editor","en-US,en;q=0.9","Prolific","hjk","","","","","","","[""de1a8354e50a5aae.mp4""]","","","2","104892.90000009537","105228.5","106731.60000002384","107077","actual","2","3","76","S","S_76.mp4","de1a8354e50a5aae.mp4","S","true_positive","104892.90000009537","105228.5","106731.60000002384","107077","-1","335.59999990463257","1503.1000000238419","345.39999997615814","-1","2184.0999999046326","","","","","","","","","","","","",""
"479"," ","","html-keyboard-response","66","107019","0.0-12.0-0.3","1","1","2026-02-24 06:00:14","3e9300109388e70555e79decfadaaa35","24.14.174.235","Mozilla/5.0 (Windows NT 10.0; Win64; x64) AppleWebKit/537.36 (KHTML, like Gecko) Chrome/145.0.0.0 Safari/537.36","WebKit","Chrome","145.0.0.0","Windows","10.0","https://ocyzhljrt7.cognition.run/editor","en-US,en;q=0.9","Prolific","hjk","","","","","","","<div style=""position:fixed; top:0; left:0; width:100vw; height:100vh; display:flex; align-items:center; justify-content:center; background:#f8f7f5;""><div style=""background:#fff; padding:2rem 3rem; border-radius:8px; border:1px solid #e0ddd8; box-shadow:0 2px 12px rgba(0,0,0,0.06); text-align:center;""><p style=""font-size:1.3rem; margin:0; color:#444;"">Press <strong style=""color:#800000;"">space</strong> to start the video</p></div></div>","","","2","","","","","","","","","","","","","","","","","","","","","","","","","","","","","","","","","","","",""
"null","null","","html-keyboard-response","67","108519","0.0-12.0-1.3","1","1","2026-02-24 06:00:14","3e9300109388e70555e79decfadaaa35","24.14.174.235","Mozilla/5.0 (Windows NT 10.0; Win64; x64) AppleWebKit/537.36 (KHTML, like Gecko) Chrome/145.0.0.0 Safari/537.36","WebKit","Chrome","145.0.0.0","Windows","10.0","https://ocyzhljrt7.cognition.run/editor","en-US,en;q=0.9","Prolific","hjk","","","","","","","","","","2","","","","","","","","","","","","","","","","","","","","","","","","","","","","","","","","","","","",""
"241","x","","video-keyboard-response","68","108762","0.0-12.0-2.3","1","1","2026-02-24 06:00:14","3e9300109388e70555e79decfadaaa35","24.14.174.235","Mozilla/5.0 (Windows NT 10.0; Win64; x64) AppleWebKit/537.36 (KHTML, like Gecko) Chrome/145.0.0.0 Safari/537.36","WebKit","Chrome","145.0.0.0","Windows","10.0","https://ocyzhljrt7.cognition.run/editor","en-US,en;q=0.9","Prolific","hjk","","","","","","","[""4ee705e91a42cf44.mp4""]","","","2","107077.20000004768","107556.90000009537","109059.10000002384","109300.80000007153","actual","2","4","14","X","X_14.mp4","4ee705e91a42cf44.mp4","X","true_negative","107077.20000004768","107556.90000009537","109059.10000002384","109300.80000007153","-1","479.7000000476837","1502.1999999284744","241.70000004768372","-1","2223.600000023842","","","","","","","","","","","","",""
"1176","k","","html-keyboard-response","69","109939","0.0-13.0","1","1","2026-02-24 06:00:14","3e9300109388e70555e79decfadaaa35","24.14.174.235","Mozilla/5.0 (Windows NT 10.0; Win64; x64) AppleWebKit/537.36 (KHTML, like Gecko) Chrome/145.0.0.0 Safari/537.36","WebKit","Chrome","145.0.0.0","Windows","10.0","https://ocyzhljrt7.cognition.run/editor","en-US,en;q=0.9","Prolific","hjk","","","","","","","<div style=""position: fixed; top: 0; left: 0; width: 100vw; height: 100vh; display: flex; align-items: center; justify-content: center;""><div style=""max-width:50rem; width:92%; text-align:left;""><h2>Trials Complete</h2><p>You have completed the main portion of the experiment.</p><p>Press <strong>k</strong> to continue.</p></div></div>","","","","","","","","","","","","","","","","","","","","","","","","","","","","","","","{""trials"":[{""Trial Type"":""actual"",""Block Number"":2,""Trial Number"":1,""Stimulus Number"":""46"",""Stimulus Character"":""S"",""Original Filename"":""S_46.mp4"",""Obfuscated Filename"":""3109b391d8c2d928.mp4"",""Response Character"":""S"",""Response Classification"":""true_positive"",""Trial Presented Timestamp"":99725.70000004768,""Begin Stimulus Key Press Timestamp"":100940.60000002384,""Stimulus Video Started Timestamp"":102443.40000009537,""Subject Response Timestamp"":102740.60000002384,""Stimulus Video Completed Timestamp"":-1,""Pre Stimulus Video Wait Time"":1214.8999999761581,""Time Between Key Press and Video Start"":1502.8000000715256,""Response Time"":297.1999999284744,""Time After Video End Before Decision Made"":-1,""Total Trial Time"":3014.899999976158},{""Trial Type"":""actual"",""Block Number"":2,""Trial Number"":2,""Stimulus Number"":""53"",""Stimulus Character"":""X"",""Original Filename"":""X_53.mp4"",""Obfuscated Filename"":""e0b31205279702b6.mp4"",""Response Character"":""X"",""Response Classification"":""true_negative"",""Trial Presented Timestamp"":102740.70000004768,""Begin Stimulus Key Press Timestamp"":103116.70000004768,""Stimulus Video Started Timestamp"":104618.20000004768,""Subject Response Timestamp"":104892.80000007153,""Stimulus Video Completed Timestamp"":-1,""Pre Stimulus Video Wait Time"":376,""Time Between Key Press and Video Start"":1501.5,""Response Time"":274.60000002384186,""Time After Video End Before Decision Made"":-1,""Total Trial Time"":2152.100000023842},{""Trial Type"":""actual"",""Block Number"":2,""Trial Number"":3,""Stimulus Number"":""76"",""Stimulus Character"":""S"",""Original Filename"":""S_76.mp4"",""Obfuscated Filename"":""de1a8354e50a5aae.mp4"",""Response Character"":""S"",""Response Classification"":""true_positive"",""Trial Presented Timestamp"":104892.90000009537,""Begin Stimulus Key Press Timestamp"":105228.5,""Stimulus Video Started Timestamp"":106731.60000002384,""Subject Response Timestamp"":107077,""Stimulus Video Completed Timestamp"":-1,""Pre Stimulus Video Wait Time"":335.59999990463257,""Time Between Key Press and Video Start"":1503.1000000238419,""Response Time"":345.39999997615814,""Time After Video End Before Decision Made"":-1,""Total Trial Time"":2184.0999999046326},{""Trial Type"":""actual"",""Block Number"":2,""Trial Number"":4,""Stimulus Number"":""14"",""Stimulus Character"":""X"",""Original Filename"":""X_14.mp4"",""Obfuscated Filename"":""4ee705e91a42cf44.mp4"",""Response Character"":""X"",""Response Classification"":""true_negative"",""Trial Presented Timestamp"":107077.20000004768,""Begin Stimulus Key Press Timestamp"":107556.90000009537,""Stimulus Video Started Timestamp"":109059.10000002384,""Subject Response Timestamp"":109300.80000007153,""Stimulus Video Completed Timestamp"":-1,""Pre Stimulus Video Wait Time"":479.7000000476837,""Time Between Key Press and Video Start"":1502.1999999284744,""Response Time"":241.70000004768372,""Time After Video End Before Decision Made"":-1,""Total Trial Time"":2223.600000023842}]}","{""time_on_screen"":1176,""start_timestamp"":109301,""end_timestamp"":110477}","","","","","","",""
"838"," ","","html-keyboard-response","70","110779","0.0-14.0","1","1","2026-02-24 06:00:14","3e9300109388e70555e79decfadaaa35","24.14.174.235","Mozilla/5.0 (Windows NT 10.0; Win64; x64) AppleWebKit/537.36 (KHTML, like Gecko) Chrome/145.0.0.0 Safari/537.36","WebKit","Chrome","145.0.0.0","Windows","10.0","https://ocyzhljrt7.cognition.run/editor","en-US,en;q=0.9","Prolific","hjk","","","","","","","<div style=""position: fixed; top: 0; left: 0; width: 100vw; height: 100vh; display: flex; align-items: center; justify-content: center;""><div style=""max-width:50rem; width:92%; text-align:left;""><h2>Questionnaires</h2><p>You will now respond to some questionnaires.</p><p>Press <strong>spacebar</strong> to continue.</p></div></div>","","","","","","","","","","","","","","","","","","","","","","","","","","","","","","","","","{""time_on_screen"":838,""start_timestamp"":110478.90000009537,""end_timestamp"":111316.90000009537}","","","","","",""
"38381","{""Q0"":""0 - Never"",""Q1"":""0 - Never"",""Q2"":""0 - Never"",""Q3"":""0 - Never"",""Q4"":""0 - Never"",""Q5"":""0 - Never"",""Q6"":""0 - Never"",""Q7"":""0 - Never"",""Q8"":""0 - Never"",""Q9"":""0 - Never"",""Q10"":""0 - Never"",""Q11"":""0 - Never"",""Q12"":""0 - Never"",""Q13"":""0 - Never"",""Q14"":""0 - Never"",""Q15"":""0 - Never"",""Q16"":""0 - Never"",""Q17"":""0 - Never"",""Q18"":""0 - Never"",""Q19"":""0 - Never"",""Q20"":""0 - Never"",""Q21"":""0 - Never"",""Q22"":""0 - Never"",""Q23"":""0 - Never"",""Q24"":""0 - Never"",""Q25"":""0 - Never"",""Q26"":""0 - Never"",""Q27"":""0 - Never"",""Q28"":""0 - Never"",""Q29"":""0 - Never"",""Q30"":""0 - Never"",""Q31"":""0 - Never"",""Q32"":""0 - Never"",""Q33"":""0 - Never""}","[0,1,2,3,4,5,6,7,8,9,10,11,12,13,14,15,16,17,18,19,20,21,22,23,24,25,26,27,28,29,30,31,32,33]","survey-multi-choice","71","149162","0.0-15.0","1","1","2026-02-24 06:00:14","3e9300109388e70555e79decfadaaa35","24.14.174.235","Mozilla/5.0 (Windows NT 10.0; Win64; x64) AppleWebKit/537.36 (KHTML, like Gecko) Chrome/145.0.0.0 Safari/537.36","WebKit","Chrome","145.0.0.0","Windows","10.0","https://ocyzhljrt7.cognition.run/editor","en-US,en;q=0.9","Prolific","hjk","","","","","","","","","","","","","","","","","","","","","","","","","","","","","","","","","","","","","","","","","[0,0,0,0,0,0,0,0,0,0,0,0,0,0,0,0,0,0,0,0,0,0,0,0,0,0,0,0,0,0,0,0,0,0]","0","[{""question_number"":1,""question_text"":""Sometimes I feel and experience things as I did when I was a child."",""response"":""0 - Never"",""score"":0},{""question_number"":2,""question_text"":""I can be greatly moved by eloquent or poetic language."",""response"":""0 - Never"",""score"":0},{""question_number"":3,""question_text"":""While watching a movie, a T.V. show, or a play, I may become so involved that I forget about myself and my surroundings and experience the story as if I were taking part in it."",""response"":""0 - Never"",""score"":0},{""question_number"":4,""question_text"":""If I stare at a picture and then look away from it, I can sometimes \""see\"" an image of the picture, almost as if I were looking at it."",""response"":""0 - Never"",""score"":0},{""question_number"":5,""question_text"":""Sometimes I feel as if my mind could envelop the whole world."",""response"":""0 - Never"",""score"":0},{""question_number"":6,""question_text"":""I like to watch cloud shapes change in the sky."",""response"":""0 - Never"",""score"":0},{""question_number"":7,""question_text"":""If I wish, I can imagine (or daydream) some things so vividly that they hold my attention as a good movie or story does."",""response"":""0 - Never"",""score"":0},{""question_number"":8,""question_text"":""I think I really know what some people mean when they talk about mystical experiences."",""response"":""0 - Never"",""score"":0},{""question_number"":9,""question_text"":""I sometimes \""step outside\"" my usual self and experience an entirely different state of being."",""response"":""0 - Never"",""score"":0},{""question_number"":10,""question_text"":""Textures - such as wool, sand, wood - sometimes remind me of colors or music."",""response"":""0 - Never"",""score"":0},{""question_number"":11,""question_text"":""Sometimes I experience things as if they were doubly real."",""response"":""0 - Never"",""score"":0},{""question_number"":12,""question_text"":""When I listen to music, I can get so caught up in it that I don't notice anything else."",""response"":""0 - Never"",""score"":0},{""question_number"":13,""question_text"":""If I wish, I can imagine that my body is so heavy that I could not move it if I wanted to."",""response"":""0 - Never"",""score"":0},{""question_number"":14,""question_text"":""I can often somehow sense the presence of another person before I actually see or hear her/him/them."",""response"":""0 - Never"",""score"":0},{""question_number"":15,""question_text"":""The crackle and flames of a wood fire stimulate my imagination."",""response"":""0 - Never"",""score"":0},{""question_number"":16,""question_text"":""It is sometimes possible for me to be completely immersed in nature or in art and to feel as if my whole state of consciousness has somehow been temporarily altered."",""response"":""0 - Never"",""score"":0},{""question_number"":17,""question_text"":""Different colors have distinctive and special meaning to me."",""response"":""0 - Never"",""score"":0},{""question_number"":18,""question_text"":""I am able to wander off into my own thoughts while doing a routine task, and then find a few minutes later that I have completed it."",""response"":""0 - Never"",""score"":0},{""question_number"":19,""question_text"":""I can sometimes recollect certain past experiences in my life with such clarity and vividness that it is like living them again or almost so."",""response"":""0 - Never"",""score"":0},{""question_number"":20,""question_text"":""Things that might seem meaningless to others often make sense to me."",""response"":""0 - Never"",""score"":0},{""question_number"":21,""question_text"":""While acting in a play, I think I could really feel the emotions of the character and \""become\"" her/him for the time being, forgetting both myself and the audience."",""response"":""0 - Never"",""score"":0},{""question_number"":22,""question_text"":""My thoughts often don't occur as words but as visual images."",""response"":""0 - Never"",""score"":0},{""question_number"":23,""question_text"":""I often take delight in small things (like; the five-pointed star shape that appears when you cut an apple across the core or the colors in soap bubbles)."",""response"":""0 - Never"",""score"":0},{""question_number"":24,""question_text"":""When listening to organ music or other powerful music I sometimes feel as if I am being lifted into the sky."",""response"":""0 - Never"",""score"":0},{""question_number"":25,""question_text"":""Sometimes I can change noise into music by the way I listen to it."",""response"":""0 - Never"",""score"":0},{""question_number"":26,""question_text"":""Some of my most vivid memories are called up by scents or sounds."",""response"":""0 - Never"",""score"":0},{""question_number"":27,""question_text"":""Certain pieces of music remind me of pictures or moving patterns of color."",""response"":""0 - Never"",""score"":0},{""question_number"":28,""question_text"":""I often know what someone is going to say before he/she/they says it."",""response"":""0 - Never"",""score"":0},{""question_number"":29,""question_text"":""I often have 'physical memories'; for example, after I've been swimming, I may feel as if I'm in the water."",""response"":""0 - Never"",""score"":0},{""question_number"":30,""question_text"":""The sound of a voice can be so fascinating to me that I can just go on listening to it."",""response"":""0 - Never"",""score"":0},{""question_number"":31,""question_text"":""At times I somehow feel the presence of someone who is not physically there."",""response"":""0 - Never"",""score"":0},{""question_number"":32,""question_text"":""Sometimes thoughts and images come to me without the slightest effort on my part."",""response"":""0 - Never"",""score"":0},{""question_number"":33,""question_text"":""I find that different odors have different colors."",""response"":""0 - Never"",""score"":0},{""question_number"":34,""question_text"":""I can be deeply moved by a sunset."",""response"":""0 - Never"",""score"":0}]","{""start_timestamp"":111319.70000004768,""end_timestamp"":149700.70000004768,""reaction_time_ms"":38381,""questions"":[{""question_number"":1,""question_text"":""Sometimes I feel and experience things as I did when I was a child."",""response"":""0 - Never"",""score"":0},{""question_number"":2,""question_text"":""I can be greatly moved by eloquent or poetic language."",""response"":""0 - Never"",""score"":0},{""question_number"":3,""question_text"":""While watching a movie, a T.V. show, or a play, I may become so involved that I forget about myself and my surroundings and experience the story as if I were taking part in it."",""response"":""0 - Never"",""score"":0},{""question_number"":4,""question_text"":""If I stare at a picture and then look away from it, I can sometimes \""see\"" an image of the picture, almost as if I were looking at it."",""response"":""0 - Never"",""score"":0},{""question_number"":5,""question_text"":""Sometimes I feel as if my mind could envelop the whole world."",""response"":""0 - Never"",""score"":0},{""question_number"":6,""question_text"":""I like to watch cloud shapes change in the sky."",""response"":""0 - Never"",""score"":0},{""question_number"":7,""question_text"":""If I wish, I can imagine (or daydream) some things so vividly that they hold my attention as a good movie or story does."",""response"":""0 - Never"",""score"":0},{""question_number"":8,""question_text"":""I think I really know what some people mean when they talk about mystical experiences."",""response"":""0 - Never"",""score"":0},{""question_number"":9,""question_text"":""I sometimes \""step outside\"" my usual self and experience an entirely different state of being."",""response"":""0 - Never"",""score"":0},{""question_number"":10,""question_text"":""Textures - such as wool, sand, wood - sometimes remind me of colors or music."",""response"":""0 - Never"",""score"":0},{""question_number"":11,""question_text"":""Sometimes I experience things as if they were doubly real."",""response"":""0 - Never"",""score"":0},{""question_number"":12,""question_text"":""When I listen to music, I can get so caught up in it that I don't notice anything else."",""response"":""0 - Never"",""score"":0},{""question_number"":13,""question_text"":""If I wish, I can imagine that my body is so heavy that I could not move it if I wanted to."",""response"":""0 - Never"",""score"":0},{""question_number"":14,""question_text"":""I can often somehow sense the presence of another person before I actually see or hear her/him/them."",""response"":""0 - Never"",""score"":0},{""question_number"":15,""question_text"":""The crackle and flames of a wood fire stimulate my imagination."",""response"":""0 - Never"",""score"":0},{""question_number"":16,""question_text"":""It is sometimes possible for me to be completely immersed in nature or in art and to feel as if my whole state of consciousness has somehow been temporarily altered."",""response"":""0 - Never"",""score"":0},{""question_number"":17,""question_text"":""Different colors have distinctive and special meaning to me."",""response"":""0 - Never"",""score"":0},{""question_number"":18,""question_text"":""I am able to wander off into my own thoughts while doing a routine task, and then find a few minutes later that I have completed it."",""response"":""0 - Never"",""score"":0},{""question_number"":19,""question_text"":""I can sometimes recollect certain past experiences in my life with such clarity and vividness that it is like living them again or almost so."",""response"":""0 - Never"",""score"":0},{""question_number"":20,""question_text"":""Things that might seem meaningless to others often make sense to me."",""response"":""0 - Never"",""score"":0},{""question_number"":21,""question_text"":""While acting in a play, I think I could really feel the emotions of the character and \""become\"" her/him for the time being, forgetting both myself and the audience."",""response"":""0 - Never"",""score"":0},{""question_number"":22,""question_text"":""My thoughts often don't occur as words but as visual images."",""response"":""0 - Never"",""score"":0},{""question_number"":23,""question_text"":""I often take delight in small things (like; the five-pointed star shape that appears when you cut an apple across the core or the colors in soap bubbles)."",""response"":""0 - Never"",""score"":0},{""question_number"":24,""question_text"":""When listening to organ music or other powerful music I sometimes feel as if I am being lifted into the sky."",""response"":""0 - Never"",""score"":0},{""question_number"":25,""question_text"":""Sometimes I can change noise into music by the way I listen to it."",""response"":""0 - Never"",""score"":0},{""question_number"":26,""question_text"":""Some of my most vivid memories are called up by scents or sounds."",""response"":""0 - Never"",""score"":0},{""question_number"":27,""question_text"":""Certain pieces of music remind me of pictures or moving patterns of color."",""response"":""0 - Never"",""score"":0},{""question_number"":28,""question_text"":""I often know what someone is going to say before he/she/they says it."",""response"":""0 - Never"",""score"":0},{""question_number"":29,""question_text"":""I often have 'physical memories'; for example, after I've been swimming, I may feel as if I'm in the water."",""response"":""0 - Never"",""score"":0},{""question_number"":30,""question_text"":""The sound of a voice can be so fascinating to me that I can just go on listening to it."",""response"":""0 - Never"",""score"":0},{""question_number"":31,""question_text"":""At times I somehow feel the presence of someone who is not physically there."",""response"":""0 - Never"",""score"":0},{""question_number"":32,""question_text"":""Sometimes thoughts and images come to me without the slightest effort on my part."",""response"":""0 - Never"",""score"":0},{""question_number"":33,""question_text"":""I find that different odors have different colors."",""response"":""0 - Never"",""score"":0},{""question_number"":34,""question_text"":""I can be deeply moved by a sunset."",""response"":""0 - Never"",""score"":0}]}","",""
